# Nusselt number time series
# <Nu(t)> averaged between 0.000000 and 2050.000000 with sampling frequency 2.000000
# time		 Nu(t)		 <Nu(t)>
0.000000	 1.000000	 1.000000
2.000000	 1.000431	 1.000215
4.000000	 1.000893	 1.000441
6.000000	 1.001468	 1.000698
8.000000	 1.002246	 1.001008
10.000000	 1.003344	 1.001397
12.000000	 1.004924	 1.001901
14.000000	 1.007213	 1.002565
16.000000	 1.010540	 1.003451
18.000000	 1.015372	 1.004643
20.000000	 1.022384	 1.006256
22.000000	 1.032531	 1.008446
24.000000	 1.047171	 1.011425
26.000000	 1.068205	 1.015480
28.000000	 1.098271	 1.021000
30.000000	 1.140965	 1.028498
32.000000	 1.201089	 1.038650
34.000000	 1.284868	 1.052329
36.000000	 1.400034	 1.070629
38.000000	 1.555611	 1.094878
40.000000	 1.761097	 1.126603
42.000000	 2.024699	 1.167425
44.000000	 2.350297	 1.218855
46.000000	 2.733209	 1.281953
48.000000	 3.155725	 1.356904
50.000000	 3.584710	 1.442588
52.000000	 3.974417	 1.536360
54.000000	 4.276354	 1.634217
56.000000	 4.453857	 1.731446
58.000000	 4.494407	 1.823545
60.000000	 4.412918	 1.907073
62.000000	 4.244003	 1.980102
64.000000	 4.028760	 2.042182
66.000000	 3.803444	 2.093984
68.000000	 3.593894	 2.136839
70.000000	 3.414827	 2.172338
72.000000	 3.272144	 2.202063
74.000000	 3.165934	 2.227428
76.000000	 3.092990	 2.249622
78.000000	 3.048533	 2.269595
80.000000	 3.027238	 2.288074
82.000000	 3.023826	 2.305592
84.000000	 3.033371	 2.322517
86.000000	 3.051474	 2.339084
88.000000	 3.074351	 2.355423
90.000000	 3.098873	 2.371585
92.000000	 3.122555	 2.387563
94.000000	 3.143530	 2.403312
96.000000	 3.160629	 2.418768
98.000000	 3.173257	 2.433858
100.000000	 3.181307	 2.448514
102.000000	 3.185056	 2.462678
104.000000	 3.185061	 2.476308
106.000000	 3.182051	 2.489377
108.000000	 3.176826	 2.501876
110.000000	 3.170173	 2.513810
112.000000	 3.162799	 2.525196
114.000000	 3.155278	 2.536059
116.000000	 3.148057	 2.546432
118.000000	 3.141453	 2.556349
120.000000	 3.135651	 2.565846
122.000000	 3.130723	 2.574957
124.000000	 3.126654	 2.583714
126.000000	 3.123370	 2.592146
128.000000	 3.120759	 2.600279
130.000000	 3.118693	 2.608133
132.000000	 3.117046	 2.615729
134.000000	 3.115700	 2.623081
136.000000	 3.114556	 2.630204
138.000000	 3.113538	 2.637109
140.000000	 3.112587	 2.643806
142.000000	 3.111666	 2.650304
144.000000	 3.110754	 2.656612
146.000000	 3.109844	 2.662736
148.000000	 3.108936	 2.668686
150.000000	 3.108037	 2.674467
152.000000	 3.107159	 2.680086
154.000000	 3.106311	 2.685550
156.000000	 3.105504	 2.690866
158.000000	 3.104746	 2.696040
160.000000	 3.104043	 2.701077
162.000000	 3.103397	 2.705983
164.000000	 3.102810	 2.710764
166.000000	 3.102280	 2.715425
168.000000	 3.101804	 2.719971
170.000000	 3.101377	 2.724406
172.000000	 3.100995	 2.728734
174.000000	 3.100654	 2.732961
176.000000	 3.100347	 2.737089
178.000000	 3.100070	 2.741122
180.000000	 3.099820	 2.745063
182.000000	 3.099592	 2.748917
184.000000	 3.099383	 2.752685
186.000000	 3.099190	 2.756372
188.000000	 3.099013	 2.759978
190.000000	 3.098848	 2.763508
192.000000	 3.098695	 2.766964
194.000000	 3.098553	 2.770347
196.000000	 3.098421	 2.773661
198.000000	 3.098299	 2.776908
200.000000	 3.098185	 2.780089
202.000000	 3.098080	 2.783206
204.000000	 3.097983	 2.786262
206.000000	 3.097893	 2.789259
208.000000	 3.097811	 2.792197
210.000000	 3.097735	 2.795080
212.000000	 3.097665	 2.797908
214.000000	 3.097601	 2.800683
216.000000	 3.097542	 2.803406
218.000000	 3.097488	 2.806080
220.000000	 3.097439	 2.808704
222.000000	 3.097394	 2.811282
224.000000	 3.097353	 2.813814
226.000000	 3.097315	 2.816300
228.000000	 3.097281	 2.818744
230.000000	 3.097250	 2.821145
232.000000	 3.097221	 2.823504
234.000000	 3.097195	 2.825824
236.000000	 3.097171	 2.828104
238.000000	 3.097149	 2.830346
240.000000	 3.097129	 2.832551
242.000000	 3.097111	 2.834719
244.000000	 3.097095	 2.836853
246.000000	 3.097080	 2.838951
248.000000	 3.097067	 2.841016
250.000000	 3.097054	 2.843048
252.000000	 3.097043	 2.845048
254.000000	 3.097033	 2.847017
256.000000	 3.097024	 2.848955
258.000000	 3.097016	 2.850863
260.000000	 3.097009	 2.852742
262.000000	 3.097003	 2.854592
264.000000	 3.096997	 2.856415
266.000000	 3.096992	 2.858210
268.000000	 3.096987	 2.859979
270.000000	 3.096983	 2.861722
272.000000	 3.096979	 2.863439
274.000000	 3.096976	 2.865131
276.000000	 3.096973	 2.866799
278.000000	 3.096970	 2.868443
280.000000	 3.096968	 2.870064
282.000000	 3.096966	 2.871662
284.000000	 3.096964	 2.873237
286.000000	 3.096963	 2.874791
288.000000	 3.096961	 2.876323
290.000000	 3.096960	 2.877834
292.000000	 3.096959	 2.879325
294.000000	 3.096958	 2.880796
296.000000	 3.096957	 2.882246
298.000000	 3.096957	 2.883678
300.000000	 3.096956	 2.885090
302.000000	 3.096956	 2.886484
304.000000	 3.096955	 2.887860
306.000000	 3.096955	 2.889217
308.000000	 3.096955	 2.890558
310.000000	 3.096954	 2.891881
312.000000	 3.096954	 2.893187
314.000000	 3.096954	 2.894477
316.000000	 3.096954	 2.895750
318.000000	 3.096954	 2.897008
320.000000	 3.096954	 2.898249
322.000000	 3.096954	 2.899476
324.000000	 3.096954	 2.900688
326.000000	 3.096954	 2.901884
328.000000	 3.096954	 2.903066
330.000000	 3.096954	 2.904234
332.000000	 3.096954	 2.905389
334.000000	 3.096954	 2.906529
336.000000	 3.096954	 2.907656
338.000000	 3.096955	 2.908769
340.000000	 3.096955	 2.909870
342.000000	 3.096955	 2.910957
344.000000	 3.096955	 2.912032
346.000000	 3.096955	 2.913095
348.000000	 3.096955	 2.914146
350.000000	 3.096955	 2.915185
352.000000	 3.096955	 2.916211
354.000000	 3.096956	 2.917227
356.000000	 3.096956	 2.918231
358.000000	 3.096956	 2.919224
360.000000	 3.096956	 2.920206
362.000000	 3.096956	 2.921177
364.000000	 3.096956	 2.922138
366.000000	 3.096957	 2.923088
368.000000	 3.096957	 2.924027
370.000000	 3.096957	 2.924957
372.000000	 3.096957	 2.925877
374.000000	 3.096957	 2.926787
376.000000	 3.096957	 2.927687
378.000000	 3.096958	 2.928578
380.000000	 3.096958	 2.929460
382.000000	 3.096958	 2.930332
384.000000	 3.096958	 2.931196
386.000000	 3.096958	 2.932050
388.000000	 3.096959	 2.932896
390.000000	 3.096959	 2.933733
392.000000	 3.096959	 2.934561
394.000000	 3.096959	 2.935381
396.000000	 3.096959	 2.936193
398.000000	 3.096960	 2.936997
400.000000	 3.096960	 2.937793
402.000000	 3.096960	 2.938581
404.000000	 3.096960	 2.939361
406.000000	 3.096961	 2.940134
408.000000	 3.096961	 2.940899
410.000000	 3.096961	 2.941656
412.000000	 3.096961	 2.942407
414.000000	 3.096962	 2.943150
416.000000	 3.096962	 2.943886
418.000000	 3.096962	 2.944615
420.000000	 3.096963	 2.945337
422.000000	 3.096963	 2.946052
424.000000	 3.096963	 2.946760
426.000000	 3.096964	 2.947462
428.000000	 3.096964	 2.948158
430.000000	 3.096964	 2.948846
432.000000	 3.096965	 2.949529
434.000000	 3.096965	 2.950205
436.000000	 3.096965	 2.950876
438.000000	 3.096966	 2.951540
440.000000	 3.096966	 2.952198
442.000000	 3.096967	 2.952850
444.000000	 3.096967	 2.953496
446.000000	 3.096967	 2.954136
448.000000	 3.096968	 2.954771
450.000000	 3.096968	 2.955400
452.000000	 3.096969	 2.956024
454.000000	 3.096969	 2.956642
456.000000	 3.096970	 2.957255
458.000000	 3.096971	 2.957863
460.000000	 3.096971	 2.958465
462.000000	 3.096972	 2.959062
464.000000	 3.096972	 2.959654
466.000000	 3.096973	 2.960240
468.000000	 3.096974	 2.960822
470.000000	 3.096974	 2.961399
472.000000	 3.096975	 2.961971
474.000000	 3.096976	 2.962539
476.000000	 3.096977	 2.963101
478.000000	 3.096977	 2.963659
480.000000	 3.096978	 2.964212
482.000000	 3.096979	 2.964761
484.000000	 3.096980	 2.965305
486.000000	 3.096981	 2.965844
488.000000	 3.096982	 2.966380
490.000000	 3.096983	 2.966911
492.000000	 3.096984	 2.967437
494.000000	 3.096985	 2.967960
496.000000	 3.096986	 2.968478
498.000000	 3.096987	 2.968992
500.000000	 3.096988	 2.969502
502.000000	 3.096989	 2.970008
504.000000	 3.096991	 2.970510
506.000000	 3.096992	 2.971008
508.000000	 3.096993	 2.971502
510.000000	 3.096995	 2.971992
512.000000	 3.096996	 2.972478
514.000000	 3.096998	 2.972961
516.000000	 3.096999	 2.973440
518.000000	 3.097001	 2.973915
520.000000	 3.097002	 2.974387
522.000000	 3.097004	 2.974855
524.000000	 3.097006	 2.975319
526.000000	 3.097008	 2.975780
528.000000	 3.097010	 2.976237
530.000000	 3.097012	 2.976691
532.000000	 3.097014	 2.977142
534.000000	 3.097016	 2.977589
536.000000	 3.097018	 2.978033
538.000000	 3.097020	 2.978474
540.000000	 3.097022	 2.978912
542.000000	 3.097025	 2.979346
544.000000	 3.097027	 2.979777
546.000000	 3.097030	 2.980205
548.000000	 3.097033	 2.980630
550.000000	 3.097035	 2.981051
552.000000	 3.097038	 2.981470
554.000000	 3.097041	 2.981886
556.000000	 3.097044	 2.982299
558.000000	 3.097048	 2.982708
560.000000	 3.097051	 2.983115
562.000000	 3.097054	 2.983519
564.000000	 3.097058	 2.983921
566.000000	 3.097061	 2.984319
568.000000	 3.097065	 2.984715
570.000000	 3.097069	 2.985107
572.000000	 3.097073	 2.985497
574.000000	 3.097077	 2.985885
576.000000	 3.097082	 2.986270
578.000000	 3.097086	 2.986652
580.000000	 3.097091	 2.987031
582.000000	 3.097096	 2.987408
584.000000	 3.097101	 2.987783
586.000000	 3.097106	 2.988154
588.000000	 3.097111	 2.988524
590.000000	 3.097117	 2.988891
592.000000	 3.097123	 2.989255
594.000000	 3.097129	 2.989617
596.000000	 3.097135	 2.989977
598.000000	 3.097141	 2.990334
600.000000	 3.097148	 2.990689
602.000000	 3.097155	 2.991041
604.000000	 3.097162	 2.991392
606.000000	 3.097169	 2.991740
608.000000	 3.097177	 2.992085
610.000000	 3.097185	 2.992429
612.000000	 3.097193	 2.992770
614.000000	 3.097201	 2.993109
616.000000	 3.097210	 2.993446
618.000000	 3.097219	 2.993781
620.000000	 3.097228	 2.994113
622.000000	 3.097238	 2.994444
624.000000	 3.097248	 2.994772
626.000000	 3.097258	 2.995099
628.000000	 3.097269	 2.995423
630.000000	 3.097280	 2.995745
632.000000	 3.097292	 2.996066
634.000000	 3.097304	 2.996384
636.000000	 3.097316	 2.996700
638.000000	 3.097329	 2.997015
640.000000	 3.097342	 2.997327
642.000000	 3.097356	 2.997638
644.000000	 3.097370	 2.997947
646.000000	 3.097385	 2.998254
648.000000	 3.097400	 2.998559
650.000000	 3.097416	 2.998862
652.000000	 3.097432	 2.999163
654.000000	 3.097449	 2.999463
656.000000	 3.097466	 2.999761
658.000000	 3.097485	 3.000057
660.000000	 3.097503	 3.000352
662.000000	 3.097523	 3.000644
664.000000	 3.097543	 3.000935
666.000000	 3.097564	 3.001225
668.000000	 3.097585	 3.001512
670.000000	 3.097608	 3.001798
672.000000	 3.097631	 3.002083
674.000000	 3.097655	 3.002365
676.000000	 3.097679	 3.002646
678.000000	 3.097705	 3.002926
680.000000	 3.097731	 3.003204
682.000000	 3.097759	 3.003481
684.000000	 3.097787	 3.003755
686.000000	 3.097817	 3.004029
688.000000	 3.097847	 3.004301
690.000000	 3.097879	 3.004571
692.000000	 3.097912	 3.004840
694.000000	 3.097946	 3.005108
696.000000	 3.097981	 3.005374
698.000000	 3.098017	 3.005639
700.000000	 3.098055	 3.005902
702.000000	 3.098093	 3.006164
704.000000	 3.098134	 3.006424
706.000000	 3.098176	 3.006684
708.000000	 3.098219	 3.006941
710.000000	 3.098263	 3.007198
712.000000	 3.098310	 3.007453
714.000000	 3.098358	 3.007707
716.000000	 3.098407	 3.007960
718.000000	 3.098459	 3.008211
720.000000	 3.098512	 3.008461
722.000000	 3.098567	 3.008710
724.000000	 3.098624	 3.008958
726.000000	 3.098684	 3.009204
728.000000	 3.098745	 3.009450
730.000000	 3.098808	 3.009694
732.000000	 3.098874	 3.009937
734.000000	 3.098942	 3.010179
736.000000	 3.099012	 3.010419
738.000000	 3.099085	 3.010659
740.000000	 3.099161	 3.010898
742.000000	 3.099239	 3.011135
744.000000	 3.099320	 3.011372
746.000000	 3.099404	 3.011607
748.000000	 3.099491	 3.011841
750.000000	 3.099581	 3.012075
752.000000	 3.099674	 3.012307
754.000000	 3.099770	 3.012538
756.000000	 3.099870	 3.012769
758.000000	 3.099973	 3.012998
760.000000	 3.100081	 3.013227
762.000000	 3.100192	 3.013454
764.000000	 3.100306	 3.013681
766.000000	 3.100425	 3.013907
768.000000	 3.100549	 3.014132
770.000000	 3.100676	 3.014356
772.000000	 3.100809	 3.014580
774.000000	 3.100946	 3.014802
776.000000	 3.101087	 3.015024
778.000000	 3.101234	 3.015245
780.000000	 3.101387	 3.015466
782.000000	 3.101544	 3.015685
784.000000	 3.101707	 3.015904
786.000000	 3.101877	 3.016122
788.000000	 3.102052	 3.016340
790.000000	 3.102233	 3.016557
792.000000	 3.102422	 3.016773
794.000000	 3.102616	 3.016989
796.000000	 3.102818	 3.017204
798.000000	 3.103027	 3.017418
800.000000	 3.103244	 3.017632
802.000000	 3.103469	 3.017846
804.000000	 3.103701	 3.018059
806.000000	 3.103942	 3.018271
808.000000	 3.104192	 3.018484
810.000000	 3.104451	 3.018695
812.000000	 3.104719	 3.018907
814.000000	 3.104997	 3.019118
816.000000	 3.105286	 3.019328
818.000000	 3.105584	 3.019539
820.000000	 3.105894	 3.019749
822.000000	 3.106215	 3.019959
824.000000	 3.106548	 3.020168
826.000000	 3.106893	 3.020378
828.000000	 3.107250	 3.020587
830.000000	 3.107621	 3.020796
832.000000	 3.108005	 3.021006
834.000000	 3.108404	 3.021215
836.000000	 3.108817	 3.021424
838.000000	 3.109246	 3.021633
840.000000	 3.109690	 3.021842
842.000000	 3.110152	 3.022051
844.000000	 3.110630	 3.022261
846.000000	 3.111126	 3.022470
848.000000	 3.111641	 3.022680
850.000000	 3.112176	 3.022890
852.000000	 3.112730	 3.023101
854.000000	 3.113305	 3.023311
856.000000	 3.113902	 3.023523
858.000000	 3.114522	 3.023734
860.000000	 3.115164	 3.023946
862.000000	 3.115831	 3.024159
864.000000	 3.116524	 3.024372
866.000000	 3.117243	 3.024586
868.000000	 3.117989	 3.024801
870.000000	 3.118763	 3.025017
872.000000	 3.119567	 3.025233
874.000000	 3.120401	 3.025450
876.000000	 3.121267	 3.025668
878.000000	 3.122166	 3.025888
880.000000	 3.123098	 3.026108
882.000000	 3.124066	 3.026330
884.000000	 3.125070	 3.026553
886.000000	 3.126112	 3.026777
888.000000	 3.127193	 3.027003
890.000000	 3.128314	 3.027230
892.000000	 3.129476	 3.027458
894.000000	 3.130682	 3.027689
896.000000	 3.131931	 3.027921
898.000000	 3.133225	 3.028155
900.000000	 3.134565	 3.028391
902.000000	 3.135952	 3.028629
904.000000	 3.137385	 3.028869
906.000000	 3.138865	 3.029111
908.000000	 3.140393	 3.029356
910.000000	 3.141970	 3.029603
912.000000	 3.143595	 3.029852
914.000000	 3.145268	 3.030104
916.000000	 3.146990	 3.030359
918.000000	 3.148759	 3.030616
920.000000	 3.150575	 3.030877
922.000000	 3.152436	 3.031140
924.000000	 3.154338	 3.031406
926.000000	 3.156279	 3.031675
928.000000	 3.158256	 3.031947
930.000000	 3.160267	 3.032222
932.000000	 3.162310	 3.032501
934.000000	 3.164382	 3.032783
936.000000	 3.166481	 3.033068
938.000000	 3.168605	 3.033356
940.000000	 3.170747	 3.033648
942.000000	 3.172905	 3.033943
944.000000	 3.175076	 3.034241
946.000000	 3.177258	 3.034543
948.000000	 3.179448	 3.034848
950.000000	 3.181646	 3.035157
952.000000	 3.183851	 3.035468
954.000000	 3.186066	 3.035783
956.000000	 3.188293	 3.036102
958.000000	 3.190536	 3.036423
960.000000	 3.192798	 3.036749
962.000000	 3.195081	 3.037077
964.000000	 3.197388	 3.037409
966.000000	 3.199726	 3.037744
968.000000	 3.202107	 3.038083
970.000000	 3.204541	 3.038426
972.000000	 3.207039	 3.038772
974.000000	 3.209609	 3.039122
976.000000	 3.212259	 3.039476
978.000000	 3.214996	 3.039834
980.000000	 3.217827	 3.040197
982.000000	 3.220756	 3.040564
984.000000	 3.223784	 3.040935
986.000000	 3.226914	 3.041312
988.000000	 3.230146	 3.041693
990.000000	 3.233478	 3.042080
992.000000	 3.236905	 3.042472
994.000000	 3.240421	 3.042870
996.000000	 3.244020	 3.043273
998.000000	 3.247695	 3.043681
1000.000000	 3.251438	 3.044096
1002.000000	 3.255240	 3.044517
1004.000000	 3.259093	 3.044943
1006.000000	 3.262988	 3.045376
1008.000000	 3.266915	 3.045815
1010.000000	 3.270865	 3.046259
1012.000000	 3.274831	 3.046710
1014.000000	 3.278805	 3.047167
1016.000000	 3.282786	 3.047630
1018.000000	 3.286769	 3.048099
1020.000000	 3.290755	 3.048574
1022.000000	 3.294742	 3.049055
1024.000000	 3.298732	 3.049541
1026.000000	 3.302725	 3.050034
1028.000000	 3.306722	 3.050532
1030.000000	 3.310722	 3.051037
1032.000000	 3.314730	 3.051547
1034.000000	 3.318747	 3.052062
1036.000000	 3.322775	 3.052584
1038.000000	 3.326816	 3.053111
1040.000000	 3.330870	 3.053645
1042.000000	 3.334938	 3.054183
1044.000000	 3.339022	 3.054728
1046.000000	 3.343122	 3.055278
1048.000000	 3.347240	 3.055835
1050.000000	 3.351379	 3.056396
1052.000000	 3.355540	 3.056964
1054.000000	 3.359728	 3.057537
1056.000000	 3.363949	 3.058117
1058.000000	 3.368212	 3.058702
1060.000000	 3.372524	 3.059293
1062.000000	 3.376893	 3.059890
1064.000000	 3.381325	 3.060493
1066.000000	 3.385821	 3.061102
1068.000000	 3.390388	 3.061718
1070.000000	 3.395029	 3.062339
1072.000000	 3.399752	 3.062968
1074.000000	 3.404563	 3.063603
1076.000000	 3.409471	 3.064244
1078.000000	 3.414487	 3.064893
1080.000000	 3.419617	 3.065549
1082.000000	 3.424874	 3.066212
1084.000000	 3.430271	 3.066882
1086.000000	 3.435824	 3.067560
1088.000000	 3.441552	 3.068246
1090.000000	 3.447475	 3.068941
1092.000000	 3.453619	 3.069644
1094.000000	 3.460025	 3.070357
1096.000000	 3.466779	 3.071079
1098.000000	 3.474068	 3.071811
1100.000000	 3.481972	 3.072556
1102.000000	 3.490450	 3.073313
1104.000000	 3.499471	 3.074084
1106.000000	 3.509080	 3.074869
1108.000000	 3.519383	 3.075670
1110.000000	 3.530349	 3.076487
1112.000000	 3.541988	 3.077323
1114.000000	 3.554283	 3.078178
1116.000000	 3.567044	 3.079052
1118.000000	 3.580087	 3.079947
1120.000000	 3.593255	 3.080862
1122.000000	 3.606468	 3.081797
1124.000000	 3.619773	 3.082753
1126.000000	 3.633096	 3.083729
1128.000000	 3.646322	 3.084724
1130.000000	 3.659345	 3.085740
1132.000000	 3.672088	 3.086774
1134.000000	 3.684540	 3.087826
1136.000000	 3.696722	 3.088896
1138.000000	 3.708691	 3.089984
1140.000000	 3.720550	 3.091088
1142.000000	 3.732428	 3.092209
1144.000000	 3.744537	 3.093348
1146.000000	 3.757231	 3.094504
1148.000000	 3.770920	 3.095681
1150.000000	 3.785885	 3.096879
1152.000000	 3.802187	 3.098101
1154.000000	 3.819803	 3.099350
1156.000000	 3.838688	 3.100627
1158.000000	 3.858839	 3.101934
1160.000000	 3.880316	 3.103274
1162.000000	 3.903146	 3.104648
1164.000000	 3.927307	 3.106059
1166.000000	 3.952756	 3.107509
1168.000000	 3.979481	 3.109000
1170.000000	 4.007531	 3.110533
1172.000000	 4.037010	 3.112111
1174.000000	 4.068113	 3.113737
1176.000000	 4.101134	 3.115414
1178.000000	 4.136543	 3.117144
1180.000000	 4.174475	 3.118933
1182.000000	 4.214887	 3.120785
1184.000000	 4.257733	 3.122702
1186.000000	 4.302860	 3.124689
1188.000000	 4.349858	 3.126748
1190.000000	 4.397896	 3.128881
1192.000000	 4.446194	 3.131087
1194.000000	 4.493981	 3.133366
1196.000000	 4.540951	 3.135716
1198.000000	 4.587244	 3.138135
1200.000000	 4.633090	 3.140623
1202.000000	 4.679125	 3.143178
1204.000000	 4.725345	 3.145802
1206.000000	 4.770428	 3.148492
1208.000000	 4.812482	 3.151242
1210.000000	 4.850018	 3.154046
1212.000000	 4.882560	 3.156893
1214.000000	 4.910169	 3.159777
1216.000000	 4.933682	 3.162690
1218.000000	 4.954696	 3.165628
1220.000000	 4.975557	 3.168590
1222.000000	 4.998743	 3.171580
1224.000000	 5.026193	 3.174606
1226.000000	 5.059105	 3.177675
1228.000000	 5.097666	 3.180797
1230.000000	 5.141109	 3.183979
1232.000000	 5.188354	 3.187228
1234.000000	 5.238070	 3.190546
1236.000000	 5.288573	 3.193936
1238.000000	 5.337505	 3.197393
1240.000000	 5.382306	 3.200911
1242.000000	 5.420802	 3.204480
1244.000000	 5.451769	 3.208088
1246.000000	 5.475791	 3.211722
1248.000000	 5.495628	 3.215376
1250.000000	 5.515319	 3.219050
1252.000000	 5.538912	 3.222750
1254.000000	 5.569240	 3.226486
1256.000000	 5.607138	 3.230271
1258.000000	 5.650989	 3.234114
1260.000000	 5.696932	 3.238017
1262.000000	 5.740714	 3.241977
1264.000000	 5.779045	 3.245985
1266.000000	 5.810123	 3.250029
1268.000000	 5.833722	 3.254098
1270.000000	 5.849919	 3.258179
1272.000000	 5.858339	 3.262261
1274.000000	 5.859961	 3.266333
1276.000000	 5.856021	 3.270385
1278.000000	 5.848213	 3.274413
1280.000000	 5.838869	 3.278414
1282.000000	 5.830526	 3.282389
1284.000000	 5.825172	 3.286344
1286.000000	 5.823659	 3.290284
1288.000000	 5.825717	 3.294215
1290.000000	 5.830357	 3.298141
1292.000000	 5.836284	 3.302064
1294.000000	 5.842281	 3.305984
1296.000000	 5.847465	 3.309900
1298.000000	 5.851371	 3.313810
1300.000000	 5.853910	 3.317711
1302.000000	 5.855276	 3.321603
1304.000000	 5.855831	 3.325484
1306.000000	 5.855976	 3.329354
1308.000000	 5.856063	 3.333211
1310.000000	 5.856343	 3.337057
1312.000000	 5.856944	 3.340893
1314.000000	 5.857889	 3.344718
1316.000000	 5.859128	 3.348534
1318.000000	 5.860571	 3.352340
1320.000000	 5.862123	 3.356137
1322.000000	 5.863709	 3.359924
1324.000000	 5.865279	 3.363703
1326.000000	 5.866814	 3.367473
1328.000000	 5.868322	 3.371234
1330.000000	 5.869823	 3.374985
1332.000000	 5.871345	 3.378728
1334.000000	 5.872915	 3.382462
1336.000000	 5.874553	 3.386187
1338.000000	 5.876269	 3.389903
1340.000000	 5.878069	 3.393612
1342.000000	 5.879949	 3.397312
1344.000000	 5.881902	 3.401003
1346.000000	 5.883921	 3.404687
1348.000000	 5.885997	 3.408363
1350.000000	 5.888123	 3.412031
1352.000000	 5.890296	 3.415692
1354.000000	 5.892512	 3.419345
1356.000000	 5.894769	 3.422991
1358.000000	 5.897066	 3.426629
1360.000000	 5.899403	 3.430260
1362.000000	 5.901778	 3.433884
1364.000000	 5.904189	 3.437501
1366.000000	 5.906634	 3.441111
1368.000000	 5.909112	 3.444714
1370.000000	 5.911618	 3.448310
1372.000000	 5.914149	 3.451899
1374.000000	 5.916703	 3.455482
1376.000000	 5.919277	 3.459058
1378.000000	 5.921867	 3.462627
1380.000000	 5.924471	 3.466190
1382.000000	 5.927087	 3.469746
1384.000000	 5.929712	 3.473296
1386.000000	 5.932344	 3.476839
1388.000000	 5.934981	 3.480376
1390.000000	 5.937620	 3.483906
1392.000000	 5.940259	 3.487431
1394.000000	 5.942897	 3.490948
1396.000000	 5.945531	 3.494460
1398.000000	 5.948160	 3.497965
1400.000000	 5.950781	 3.501464
1402.000000	 5.953392	 3.504957
1404.000000	 5.955993	 3.508444
1406.000000	 5.958581	 3.511924
1408.000000	 5.961154	 3.515398
1410.000000	 5.963712	 3.518866
1412.000000	 5.966252	 3.522328
1414.000000	 5.968774	 3.525783
1416.000000	 5.971276	 3.529232
1418.000000	 5.973757	 3.532675
1420.000000	 5.976216	 3.536112
1422.000000	 5.978651	 3.539542
1424.000000	 5.981062	 3.542967
1426.000000	 5.983448	 3.546385
1428.000000	 5.985807	 3.549797
1430.000000	 5.988139	 3.553202
1432.000000	 5.990444	 3.556601
1434.000000	 5.992720	 3.559994
1436.000000	 5.994967	 3.563381
1438.000000	 5.997183	 3.566761
1440.000000	 5.999370	 3.570135
1442.000000	 6.001526	 3.573503
1444.000000	 6.003650	 3.576864
1446.000000	 6.005742	 3.580219
1448.000000	 6.007802	 3.583567
1450.000000	 6.009830	 3.586909
1452.000000	 6.011825	 3.590245
1454.000000	 6.013787	 3.593574
1456.000000	 6.015716	 3.596896
1458.000000	 6.017611	 3.600212
1460.000000	 6.019472	 3.603522
1462.000000	 6.021301	 3.606825
1464.000000	 6.023095	 3.610121
1466.000000	 6.024855	 3.613411
1468.000000	 6.026582	 3.616694
1470.000000	 6.028275	 3.619971
1472.000000	 6.029935	 3.623241
1474.000000	 6.031561	 3.626504
1476.000000	 6.033153	 3.629761
1478.000000	 6.034712	 3.633011
1480.000000	 6.036238	 3.636254
1482.000000	 6.037731	 3.639490
1484.000000	 6.039191	 3.642720
1486.000000	 6.040619	 3.645943
1488.000000	 6.042014	 3.649159
1490.000000	 6.043377	 3.652369
1492.000000	 6.044708	 3.655571
1494.000000	 6.046008	 3.658767
1496.000000	 6.047277	 3.661956
1498.000000	 6.048515	 3.665138
1500.000000	 6.049722	 3.668313
1502.000000	 6.050899	 3.671482
1504.000000	 6.052046	 3.674643
1506.000000	 6.053164	 3.677798
1508.000000	 6.054253	 3.680945
1510.000000	 6.055313	 3.684086
1512.000000	 6.056345	 3.687220
1514.000000	 6.057349	 3.690346
1516.000000	 6.058325	 3.693466
1518.000000	 6.059275	 3.696579
1520.000000	 6.060198	 3.699685
1522.000000	 6.061094	 3.702784
1524.000000	 6.061966	 3.705876
1526.000000	 6.062811	 3.708961
1528.000000	 6.063633	 3.712039
1530.000000	 6.064429	 3.715110
1532.000000	 6.065202	 3.718174
1534.000000	 6.065952	 3.721231
1536.000000	 6.066679	 3.724281
1538.000000	 6.067383	 3.727324
1540.000000	 6.068065	 3.730360
1542.000000	 6.068726	 3.733389
1544.000000	 6.069365	 3.736411
1546.000000	 6.069984	 3.739426
1548.000000	 6.070583	 3.742434
1550.000000	 6.071162	 3.745435
1552.000000	 6.071723	 3.748429
1554.000000	 6.072264	 3.751416
1556.000000	 6.072787	 3.754396
1558.000000	 6.073292	 3.757369
1560.000000	 6.073781	 3.760335
1562.000000	 6.074252	 3.763294
1564.000000	 6.074707	 3.766246
1566.000000	 6.075146	 3.769191
1568.000000	 6.075569	 3.772129
1570.000000	 6.075977	 3.775060
1572.000000	 6.076371	 3.777984
1574.000000	 6.076751	 3.780901
1576.000000	 6.077117	 3.783811
1578.000000	 6.077470	 3.786715
1580.000000	 6.077809	 3.789611
1582.000000	 6.078137	 3.792501
1584.000000	 6.078452	 3.795383
1586.000000	 6.078756	 3.798259
1588.000000	 6.079048	 3.801128
1590.000000	 6.079330	 3.803990
1592.000000	 6.079602	 3.806845
1594.000000	 6.079863	 3.809694
1596.000000	 6.080115	 3.812535
1598.000000	 6.080357	 3.815370
1600.000000	 6.080591	 3.818198
1602.000000	 6.080816	 3.821019
1604.000000	 6.081033	 3.823834
1606.000000	 6.081243	 3.826642
1608.000000	 6.081444	 3.829443
1610.000000	 6.081639	 3.832237
1612.000000	 6.081827	 3.835024
1614.000000	 6.082009	 3.837805
1616.000000	 6.082185	 3.840580
1618.000000	 6.082355	 3.843347
1620.000000	 6.082519	 3.846108
1622.000000	 6.082679	 3.848863
1624.000000	 6.082833	 3.851610
1626.000000	 6.082983	 3.854352
1628.000000	 6.083129	 3.857086
1630.000000	 6.083271	 3.859815
1632.000000	 6.083409	 3.862536
1634.000000	 6.083544	 3.865251
1636.000000	 6.083675	 3.867960
1638.000000	 6.083804	 3.870662
1640.000000	 6.083930	 3.873358
1642.000000	 6.084054	 3.876048
1644.000000	 6.084176	 3.878731
1646.000000	 6.084295	 3.881407
1648.000000	 6.084413	 3.884078
1650.000000	 6.084530	 3.886742
1652.000000	 6.084645	 3.889399
1654.000000	 6.084759	 3.892051
1656.000000	 6.084873	 3.894696
1658.000000	 6.084986	 3.897335
1660.000000	 6.085098	 3.899967
1662.000000	 6.085210	 3.902594
1664.000000	 6.085322	 3.905214
1666.000000	 6.085434	 3.907828
1668.000000	 6.085546	 3.910436
1670.000000	 6.085659	 3.913038
1672.000000	 6.085772	 3.915634
1674.000000	 6.085886	 3.918224
1676.000000	 6.086001	 3.920808
1678.000000	 6.086117	 3.923385
1680.000000	 6.086233	 3.925957
1682.000000	 6.086352	 3.928523
1684.000000	 6.086471	 3.931083
1686.000000	 6.086592	 3.933637
1688.000000	 6.086715	 3.936185
1690.000000	 6.086839	 3.938727
1692.000000	 6.086965	 3.941263
1694.000000	 6.087093	 3.943794
1696.000000	 6.087223	 3.946318
1698.000000	 6.087356	 3.948837
1700.000000	 6.087490	 3.951350
1702.000000	 6.087627	 3.953858
1704.000000	 6.087765	 3.956359
1706.000000	 6.087907	 3.958855
1708.000000	 6.088050	 3.961346
1710.000000	 6.088197	 3.963830
1712.000000	 6.088346	 3.966309
1714.000000	 6.088497	 3.968783
1716.000000	 6.088651	 3.971250
1718.000000	 6.088808	 3.973713
1720.000000	 6.088968	 3.976170
1722.000000	 6.089130	 3.978621
1724.000000	 6.089295	 3.981066
1726.000000	 6.089463	 3.983507
1728.000000	 6.089634	 3.985942
1730.000000	 6.089808	 3.988371
1732.000000	 6.089985	 3.990795
1734.000000	 6.090165	 3.993214
1736.000000	 6.090347	 3.995627
1738.000000	 6.090533	 3.998035
1740.000000	 6.090721	 4.000437
1742.000000	 6.090913	 4.002835
1744.000000	 6.091107	 4.005227
1746.000000	 6.091305	 4.007614
1748.000000	 6.091505	 4.009995
1750.000000	 6.091708	 4.012372
1752.000000	 6.091915	 4.014743
1754.000000	 6.092124	 4.017109
1756.000000	 6.092336	 4.019470
1758.000000	 6.092551	 4.021826
1760.000000	 6.092768	 4.024176
1762.000000	 6.092989	 4.026522
1764.000000	 6.093212	 4.028862
1766.000000	 6.093439	 4.031198
1768.000000	 6.093667	 4.033528
1770.000000	 6.093899	 4.035854
1772.000000	 6.094133	 4.038174
1774.000000	 6.094370	 4.040490
1776.000000	 6.094610	 4.042800
1778.000000	 6.094852	 4.045106
1780.000000	 6.095097	 4.047407
1782.000000	 6.095344	 4.049703
1784.000000	 6.095593	 4.051994
1786.000000	 6.095845	 4.054280
1788.000000	 6.096099	 4.056561
1790.000000	 6.096356	 4.058838
1792.000000	 6.096615	 4.061110
1794.000000	 6.096876	 4.063377
1796.000000	 6.097139	 4.065639
1798.000000	 6.097404	 4.067896
1800.000000	 6.097671	 4.070149
1802.000000	 6.097941	 4.072397
1804.000000	 6.098212	 4.074641
1806.000000	 6.098485	 4.076880
1808.000000	 6.098759	 4.079114
1810.000000	 6.099036	 4.081343
1812.000000	 6.099314	 4.083568
1814.000000	 6.099594	 4.085788
1816.000000	 6.099875	 4.088004
1818.000000	 6.100158	 4.090215
1820.000000	 6.100443	 4.092422
1822.000000	 6.100728	 4.094624
1824.000000	 6.101015	 4.096821
1826.000000	 6.101304	 4.099015
1828.000000	 6.101593	 4.101203
1830.000000	 6.101884	 4.103387
1832.000000	 6.102175	 4.105567
1834.000000	 6.102468	 4.107742
1836.000000	 6.102761	 4.109913
1838.000000	 6.103056	 4.112080
1840.000000	 6.103351	 4.114242
1842.000000	 6.103647	 4.116399
1844.000000	 6.103944	 4.118553
1846.000000	 6.104241	 4.120702
1848.000000	 6.104539	 4.122846
1850.000000	 6.104837	 4.124987
1852.000000	 6.105135	 4.127123
1854.000000	 6.105434	 4.129255
1856.000000	 6.105734	 4.131382
1858.000000	 6.106033	 4.133506
1860.000000	 6.106333	 4.135625
1862.000000	 6.106633	 4.137739
1864.000000	 6.106932	 4.139850
1866.000000	 6.107232	 4.141956
1868.000000	 6.107532	 4.144059
1870.000000	 6.107831	 4.146157
1872.000000	 6.108131	 4.148251
1874.000000	 6.108430	 4.150340
1876.000000	 6.108728	 4.152426
1878.000000	 6.109027	 4.154507
1880.000000	 6.109325	 4.156585
1882.000000	 6.109622	 4.158658
1884.000000	 6.109919	 4.160727
1886.000000	 6.110215	 4.162792
1888.000000	 6.110510	 4.164854
1890.000000	 6.110805	 4.166911
1892.000000	 6.111099	 4.168964
1894.000000	 6.111392	 4.171013
1896.000000	 6.111684	 4.173057
1898.000000	 6.111975	 4.175098
1900.000000	 6.112265	 4.177135
1902.000000	 6.112555	 4.179168
1904.000000	 6.112843	 4.181197
1906.000000	 6.113129	 4.183223
1908.000000	 6.113415	 4.185244
1910.000000	 6.113699	 4.187261
1912.000000	 6.113983	 4.189274
1914.000000	 6.114264	 4.191284
1916.000000	 6.114544	 4.193289
1918.000000	 6.114823	 4.195291
1920.000000	 6.115101	 4.197288
1922.000000	 6.115377	 4.199282
1924.000000	 6.115651	 4.201272
1926.000000	 6.115923	 4.203258
1928.000000	 6.116194	 4.205241
1930.000000	 6.116464	 4.207219
1932.000000	 6.116731	 4.209194
1934.000000	 6.116997	 4.211165
1936.000000	 6.117261	 4.213132
1938.000000	 6.117523	 4.215095
1940.000000	 6.117783	 4.217055
1942.000000	 6.118041	 4.219010
1944.000000	 6.118297	 4.220962
1946.000000	 6.118551	 4.222911
1948.000000	 6.118804	 4.224855
1950.000000	 6.119054	 4.226796
1952.000000	 6.119302	 4.228733
1954.000000	 6.119548	 4.230666
1956.000000	 6.119792	 4.232596
1958.000000	 6.120033	 4.234522
1960.000000	 6.120273	 4.236444
1962.000000	 6.120510	 4.238363
1964.000000	 6.120745	 4.240278
1966.000000	 6.120977	 4.242189
1968.000000	 6.121208	 4.244097
1970.000000	 6.121436	 4.246001
1972.000000	 6.121661	 4.247901
1974.000000	 6.121885	 4.249798
1976.000000	 6.122105	 4.251691
1978.000000	 6.122324	 4.253580
1980.000000	 6.122540	 4.255466
1982.000000	 6.122754	 4.257349
1984.000000	 6.122965	 4.259227
1986.000000	 6.123173	 4.261103
1988.000000	 6.123380	 4.262974
1990.000000	 6.123583	 4.264842
1992.000000	 6.123784	 4.266707
1994.000000	 6.123983	 4.268568
1996.000000	 6.124179	 4.270425
1998.000000	 6.124373	 4.272279
2000.000000	 6.124564	 4.274130
2002.000000	 6.124752	 4.275977
2004.000000	 6.124938	 4.277820
2006.000000	 6.125121	 4.279660
2008.000000	 6.125302	 4.281496
2010.000000	 6.125480	 4.283329
2012.000000	 6.125655	 4.285159
2014.000000	 6.125828	 4.286985
2016.000000	 6.125998	 4.288808
2018.000000	 6.126166	 4.290627
2020.000000	 6.126331	 4.292443
2022.000000	 6.126493	 4.294255
2024.000000	 6.126653	 4.296064
2026.000000	 6.126810	 4.297869
2028.000000	 6.126965	 4.299671
2030.000000	 6.127117	 4.301470
2032.000000	 6.127266	 4.303265
2034.000000	 6.127413	 4.305057
2036.000000	 6.127557	 4.306846
2038.000000	 6.127698	 4.308631
2040.000000	 6.127837	 4.310413
2042.000000	 6.127973	 4.312191
2044.000000	 6.128107	 4.313966
2046.000000	 6.128238	 4.315738
2048.000000	 6.128367	 4.317506
2050.000000	 6.128493	 4.319271
