# Reynolds number time series
# <Re(t)> averaged between 250.000000 and 300.000000 with sampling frequency 0.500000
# time		 Re_uMag(t)	 <Re_uMag(t)>	 Re_uxMag(t)	 <Re_uxMag(t)>	 Re_uzMag(t)	 <Re_uzMag(t)>	  Re_uRMS(t)	 <Re_uRMS(t)>	 Re_uxRMS(t)	 <Re_uxRMS(t)>	 Re_uzRMS(t)	 <Re_uzRMS(t)>	 
250.000000	 19980.510448	 19980.510448	 17846.024003	 17846.024003	 13594.597919	 13594.597919	 21502.825910	 21502.825910	 19902.568749	 19902.568749	 17455.379675	 17455.379675	 
250.500000	 20429.511369	 20180.707682	 17912.348211	 17843.339983	 13770.553812	 13670.503226	 21899.683666	 21659.342416	 19908.601116	 19879.281710	 16729.308369	 17016.016699	 
251.000000	 20588.395761	 20261.678626	 17560.187962	 17704.117906	 13914.370183	 13731.467548	 22329.545505	 21711.413300	 19367.334843	 19708.632754	 16106.955574	 16652.633847	 
251.500000	 20639.169969	 20353.933520	 17502.722844	 17634.230755	 14013.530939	 13784.622679	 22881.816190	 21905.455463	 19582.031791	 19666.163229	 15774.738800	 16375.210406	 
252.000000	 20516.741736	 20379.638205	 17403.764130	 17586.776405	 14034.400729	 13822.799557	 23284.543968	 22126.770297	 20111.810375	 19750.436097	 15463.113264	 16181.939476	 
252.500000	 20334.416115	 20369.096934	 17710.627411	 17602.061173	 13920.086557	 13834.553178	 23158.527189	 22298.719879	 20747.802568	 19916.326615	 15040.243130	 15980.157195	 
253.000000	 20280.308616	 20353.916309	 18137.145117	 17674.753102	 13566.023246	 13795.170178	 23324.374092	 22441.655223	 21441.022461	 20133.823549	 14747.442468	 15788.526451	 
253.500000	 20140.238048	 20322.235456	 18223.073454	 17736.143947	 13016.571019	 13697.460242	 23527.042518	 22577.328635	 21857.332846	 20337.436509	 14436.301613	 15616.951754	 
254.000000	 19968.813229	 20238.759875	 17888.510914	 17720.651232	 12434.263848	 13552.839174	 23406.052154	 22666.145750	 21740.891814	 20479.027325	 14161.843425	 15447.482406	 
254.500000	 19411.834065	 20101.139806	 17248.891580	 17635.354940	 12241.929739	 13408.997055	 23038.128903	 22692.796639	 21273.051507	 20535.309422	 14393.802629	 15277.891932	 
255.000000	 18617.275665	 19900.760808	 16243.670586	 17476.465657	 13022.386010	 13277.788763	 22428.379170	 22630.248807	 20231.515734	 20472.148384	 14870.052215	 15098.756826	 
255.500000	 17596.947231	 19668.156367	 14836.238548	 17210.147198	 13540.168335	 13183.584345	 21427.915948	 22510.154223	 18939.072499	 20267.599219	 15146.502589	 14949.627824	 
256.000000	 17094.170327	 19316.455673	 14510.693424	 16901.888085	 13744.318384	 13117.934352	 21330.572965	 22194.312334	 17605.852306	 19962.935476	 14862.565431	 14861.850444	 
256.500000	 17223.809426	 19011.363551	 14031.119786	 16645.951445	 13891.648448	 13083.762133	 20911.096196	 21817.050795	 16435.198683	 19654.221737	 15039.566034	 14842.164497	 
257.000000	 17905.569827	 18700.120200	 13389.417658	 16370.879231	 14218.808069	 13067.120245	 21711.019848	 21405.554525	 15654.732209	 19321.036113	 15945.842663	 14910.921378	 
257.500000	 16998.584479	 18366.972440	 14173.037200	 16058.712762	 14731.367846	 13083.762242	 20540.435321	 20989.668953	 16517.465997	 18957.318566	 17450.476414	 15053.129386	 
258.000000	 17234.098291	 18031.229672	 15735.147143	 15758.890302	 14973.477771	 13082.689475	 20873.000211	 20576.270137	 18113.003572	 18602.725901	 18826.333990	 15149.142022	 
258.500000	 17849.552370	 17712.697289	 16859.375168	 15472.966009	 14805.291012	 13047.304347	 20421.989464	 20193.928368	 19926.512368	 18243.567976	 19443.697958	 15181.655248	 
259.000000	 18747.175632	 17405.638535	 17111.411844	 15172.112325	 14111.400671	 13040.859832	 21007.558664	 19858.935366	 20608.475739	 17860.990778	 18854.383352	 15194.559995	 
259.500000	 19881.783819	 17127.835853	 18222.102579	 14901.201580	 13659.808129	 13023.244757	 22158.022385	 19535.429182	 21210.639691	 17510.137881	 18217.184469	 15164.161119	 
260.000000	 20841.386219	 16863.772928	 18921.942066	 14655.630984	 13258.297149	 12990.795952	 22901.943687	 19205.093556	 21596.744692	 17206.296271	 17402.074998	 15101.187904	 
260.500000	 21861.650129	 16626.044982	 19245.818361	 14437.202003	 12811.543095	 12931.910262	 23791.702353	 18899.583945	 22280.086704	 16943.553104	 16278.082944	 15012.817105	 
261.000000	 23231.923203	 16444.833683	 19877.197602	 14233.821518	 12456.361844	 12846.716426	 25641.131535	 18659.222182	 22979.245776	 16683.118611	 15101.250559	 14907.095639	 
261.500000	 22961.248899	 16313.829905	 20167.537363	 14045.025030	 12214.315968	 12768.899193	 25768.418899	 18475.051831	 23384.972683	 16429.419508	 14431.877174	 14794.960675	 
262.000000	 23382.567486	 16209.816825	 20162.714037	 13880.843271	 12221.415094	 12708.714664	 26227.680602	 18310.892851	 23245.708921	 16210.398679	 14071.513655	 14691.208706	 
262.500000	 22178.430137	 16295.389217	 18974.572976	 13837.155740	 12361.692194	 12669.688384	 25306.204765	 18141.396090	 22093.754875	 16036.486734	 13948.822794	 14607.142168	 
263.000000	 21316.083730	 16480.049121	 18038.892057	 13980.718118	 12655.759594	 12648.951551	 23075.466632	 17966.121473	 20600.009719	 16095.433892	 14864.705270	 14540.720388	 
263.500000	 20029.069605	 16605.050562	 16566.669995	 14051.845959	 12800.733977	 12637.269029	 21611.114422	 17965.828337	 19608.603523	 16158.538843	 16347.714809	 14494.672329	 
264.000000	 18349.217949	 16644.922453	 15345.903481	 14063.634001	 12930.517224	 12638.353737	 20445.411997	 17996.951067	 17984.544648	 16199.929047	 17036.486739	 14477.038832	 
264.500000	 16964.872800	 16640.920990	 14151.666249	 14062.755940	 13137.980849	 12651.715915	 20823.330791	 17987.689908	 16538.897925	 16209.760064	 17752.497073	 14497.385052	 
265.000000	 17121.418578	 16609.009168	 13177.784168	 14023.751447	 13434.918171	 12673.511790	 21304.737894	 17973.293753	 15025.903740	 16147.538089	 18643.011228	 14592.997050	 
265.500000	 18171.194785	 16530.281100	 13673.585527	 13937.022933	 14157.644074	 12719.848539	 20777.430091	 17899.211835	 14980.999693	 16079.102918	 19186.627887	 14733.742952	 
266.000000	 19244.695523	 16414.130453	 14414.785158	 13866.918329	 14538.295985	 12743.239075	 21851.659926	 17782.897787	 15629.247590	 16016.494976	 19232.603035	 14821.364976	 
266.500000	 20376.627564	 16297.724058	 14884.967265	 13808.067078	 14736.766944	 12746.803008	 22812.422490	 17662.065592	 16123.378026	 15951.056714	 19178.642561	 14874.259389	 
267.000000	 20247.151534	 16189.499382	 16179.179555	 13745.489435	 14408.145661	 12734.999693	 21748.115533	 17697.187853	 17533.705983	 15881.473978	 18615.595141	 14906.373837	 
267.500000	 20455.784864	 16132.930672	 16032.124959	 13684.636233	 14068.540366	 12716.924140	 21718.120017	 17808.856319	 17443.433106	 15807.406417	 18225.997230	 14917.477597	 
268.000000	 20493.424453	 16248.949157	 15466.356266	 13629.254922	 13855.119987	 12694.296411	 21878.799414	 17914.705558	 16861.313395	 15724.798593	 17880.805914	 14903.747553	 
268.500000	 20668.519274	 16356.298314	 15010.858078	 13572.544127	 13795.962049	 12670.465564	 21899.215828	 18017.014945	 17252.530670	 15640.290569	 17422.308075	 14876.952102	 
269.000000	 20534.812620	 16439.290464	 14971.411410	 13516.225544	 13781.661361	 12647.367607	 21733.497511	 18097.949928	 18941.202880	 15555.507946	 17070.505906	 14850.741173	 
269.500000	 20826.936643	 16515.854049	 15292.687633	 13457.655306	 13583.466069	 12633.352940	 22352.973953	 18166.548093	 20023.103317	 15470.817133	 16340.052765	 14846.985435	 
270.000000	 20451.930077	 16593.764774	 15639.942795	 13423.639711	 13242.636431	 12625.462054	 22463.787763	 18234.138597	 19962.994235	 15466.872805	 15393.154360	 14836.364423	 
270.500000	 20610.324066	 16686.822815	 16120.562688	 13464.339994	 12956.854584	 12609.205215	 22762.127209	 18312.500884	 20796.719183	 15538.783805	 15478.177248	 14814.004408	 
271.000000	 21481.543423	 16796.934721	 16235.224064	 13524.192628	 12814.592615	 12582.348640	 23266.892735	 18414.828234	 20168.173502	 15637.473948	 15379.226851	 14782.731765	 
271.500000	 21375.653332	 16895.554916	 16140.283572	 13563.869694	 12967.028128	 12561.906561	 23297.915783	 18515.013396	 20955.751018	 15733.158205	 14756.055385	 14753.324550	 
272.000000	 19929.497481	 16953.906988	 16819.281703	 13618.052536	 13470.383545	 12557.650999	 23571.314273	 18573.530699	 21748.967138	 15853.237262	 15540.651779	 14731.466647	 
272.500000	 19852.772194	 16978.163142	 16797.123132	 13682.695973	 13898.812078	 12570.459470	 23995.322801	 18610.422327	 21671.003323	 15979.710438	 15575.277107	 14722.368435	 
273.000000	 19455.447332	 17011.992305	 15625.707696	 13715.417113	 14416.356395	 12602.288283	 23689.366808	 18681.459632	 20191.692424	 16034.234703	 16328.046749	 14725.934488	 
273.500000	 18257.967440	 17033.411535	 13645.148685	 13693.034870	 14879.239568	 12646.123681	 22295.191647	 18754.401973	 17578.757977	 16036.073876	 17372.586044	 14743.425737	 
274.000000	 19066.668878	 17008.472420	 13856.049604	 13658.594625	 15429.267137	 12695.818585	 22312.469780	 18747.034346	 17262.795086	 16018.588139	 18030.770193	 14784.123119	 
274.500000	 19036.582551	 16978.703511	 13129.052360	 13623.776982	 15647.706946	 12754.001201	 21632.896329	 18708.048119	 15760.143406	 15998.407516	 19433.268531	 14853.562510	 
275.000000	 18600.525197	 16945.087400	 12550.362727	 13589.775601	 16357.634805	 12824.121626	 21310.304228	 18659.004646	 14436.708693	 15964.659905	 20161.137465	 14955.904024	 
275.500000	 18452.922356	 16892.981799	 12470.517646	 13549.471151	 16666.921849	 12886.006920	 21572.816555	 18587.480573	 14184.343846	 15904.694521	 20274.044578	 15026.765399	 
276.000000	 19599.077108	 16824.408836	 12287.987579	 13488.119241	 16904.206952	 12927.947711	 22678.236589	 18498.062964	 14188.652675	 15835.623020	 19767.871677	 15070.827979	 
276.500000	 20718.911366	 16757.070085	 12077.680113	 13419.610231	 17465.720246	 12960.952285	 23504.045796	 18413.100263	 15247.645945	 15760.023212	 19460.939738	 15098.384308	 
277.000000	 21637.458282	 16696.569795	 14736.434301	 13349.338421	 17345.389659	 12991.529098	 24169.921028	 18339.050220	 18341.796121	 15684.045278	 18662.250730	 15116.013424	 
277.500000	 22199.348379	 16636.223368	 16253.628745	 13273.880044	 17292.743170	 13019.597486	 24579.361618	 18263.767139	 20190.852931	 15599.534331	 18241.223246	 15126.855889	 
278.000000	 22716.165833	 16578.894117	 18027.360893	 13198.349135	 17344.938569	 13043.223196	 25121.054715	 18188.985941	 21869.988276	 15517.635494	 18213.089543	 15135.165111	 
278.500000	 23109.771837	 16525.296469	 18820.824727	 13133.025208	 17443.818487	 13063.052902	 25089.340477	 18114.827977	 22292.435825	 15440.899953	 18317.989217	 15132.376410	 
279.000000	 22236.133835	 16466.983043	 17776.499933	 13075.855772	 17364.539275	 13078.143715	 24390.081575	 18034.911356	 21198.323635	 15367.849493	 18578.481300	 15127.225655	 
279.500000	 22044.617692	 16409.197003	 15010.967228	 13025.053806	 17058.191819	 13090.906361	 23388.566134	 17959.753658	 18620.398751	 15298.818196	 18041.935786	 15124.054843	 
280.000000	 21904.561423	 16356.842829	 15108.305830	 12978.882053	 16660.407105	 13110.977306	 23392.420224	 17887.964363	 17151.875447	 15232.348921	 17915.478254	 15131.598638	 
280.500000	 19960.094381	 16334.433020	 14660.115642	 12937.066629	 16434.969736	 13152.216293	 21393.774091	 17820.292848	 16574.481361	 15170.655490	 17921.998095	 15162.111600	 
281.000000	 19664.037567	 16354.771984	 15693.236130	 12898.684335	 16295.945376	 13201.880443	 20987.265216	 17757.613851	 17431.479949	 15113.435574	 18584.014635	 15203.491289	 
281.500000	 19248.294763	 16378.964679	 15169.082756	 12859.401664	 16204.680434	 13247.170550	 20729.797944	 17729.823405	 16938.695306	 15059.070401	 18499.619943	 15247.542155	 
282.000000	 20009.754235	 16417.560233	 14351.507826	 12818.918483	 16370.395454	 13292.492815	 20900.897709	 17736.212345	 16340.399240	 15007.020111	 18678.014126	 15294.167964	 
282.500000	 20097.172836	 16470.279696	 14176.463266	 12783.745633	 16140.443052	 13333.525137	 21188.098767	 17766.189888	 15965.031396	 14954.533104	 17969.917244	 15326.531530	 
283.000000	 19786.418903	 16517.627136	 13724.133330	 12752.237422	 16147.684910	 13375.446360	 21101.518316	 17815.308282	 15614.016866	 14904.139191	 17396.273988	 15352.753523	 
283.500000	 19678.354474	 16564.108421	 14162.981953	 12722.831213	 16356.254365	 13418.630524	 21092.752446	 17862.461067	 16042.323352	 14854.957257	 17176.634576	 15378.296188	 
284.000000	 19821.734637	 16608.864153	 14828.770118	 12696.178532	 16538.330232	 13463.835584	 20889.077260	 17901.616866	 16614.459753	 14809.458180	 17278.433261	 15405.624065	 
284.500000	 20396.532142	 16654.017573	 13242.988884	 12669.313367	 16785.836097	 13511.053700	 21357.244786	 17936.981810	 14931.896809	 14768.149537	 17613.734762	 15435.438215	 
285.000000	 20751.515181	 16703.422113	 13347.063273	 12645.929635	 16872.519457	 13558.252732	 21726.150848	 17979.734410	 15342.256993	 14728.742800	 17859.569087	 15467.196085	 
285.500000	 21054.710481	 16750.733537	 13277.979835	 12623.889805	 16863.107273	 13603.831425	 21953.660906	 18021.693937	 15403.362108	 14690.905506	 17914.819513	 15499.867149	 
286.000000	 21510.805765	 16796.990163	 13957.510922	 12609.050534	 16982.825767	 13650.066754	 22459.259003	 18062.652043	 15971.594644	 14659.592281	 18577.673152	 15541.494933	 
286.500000	 20638.395388	 16840.831902	 14213.244581	 12615.237233	 17093.028230	 13696.581635	 21745.699476	 18105.299254	 16384.966116	 14627.076084	 18599.425304	 15581.673763	 
287.000000	 19585.079189	 16874.544520	 14185.824830	 12619.455820	 17164.301633	 13742.805788	 20719.489335	 18137.761037	 16233.728711	 14586.342239	 18618.638695	 15621.827229	 
287.500000	 18862.631261	 16898.924706	 13411.345842	 12615.366914	 17198.249453	 13788.264506	 20100.975073	 18160.434141	 15352.491073	 14543.918369	 18782.834949	 15663.077963	 
288.000000	 18747.939718	 16915.835359	 12873.834436	 12600.105823	 17272.170954	 13833.484406	 20040.744305	 18178.830287	 14808.725778	 14499.884754	 18643.356558	 15701.628696	 
288.500000	 18814.183423	 16934.522801	 13241.197946	 12577.646238	 17365.452250	 13878.757633	 19962.124802	 18197.386623	 15808.824062	 14460.016742	 18594.345023	 15738.555797	 
289.000000	 18987.616566	 16957.080222	 13762.270426	 12548.477448	 17366.284745	 13922.877928	 19979.417019	 18216.085771	 16976.135839	 14422.079976	 18552.223720	 15774.037474	 
289.500000	 19084.422169	 16979.714205	 14328.596456	 12517.196316	 17273.564753	 13964.759160	 19838.974055	 18232.764121	 17635.337249	 14388.139194	 18502.365410	 15808.136894	 
290.000000	 19111.639059	 17003.188976	 14481.097432	 12483.882030	 17165.429259	 14004.272318	 19690.400063	 18248.558784	 17627.977839	 14355.854874	 18263.187209	 15838.319233	 
290.500000	 19455.316446	 17027.790602	 14102.519834	 12446.771883	 17106.271634	 14042.065053	 19922.446429	 18264.376790	 16818.307730	 14354.875141	 18020.395104	 15864.884036	 
291.000000	 19987.733122	 17050.842412	 13351.100227	 12408.402723	 17026.263267	 14077.517917	 20465.715205	 18278.862050	 15654.571035	 14369.093759	 18103.054342	 15890.452472	 
291.500000	 20563.451477	 17072.482837	 13331.834368	 12368.010825	 16939.010747	 14109.736666	 20892.239695	 18290.676880	 15825.760393	 14362.913817	 18271.368512	 15917.614648	 
292.000000	 20022.215079	 17093.282241	 13444.171822	 12353.438387	 16960.446153	 14141.497705	 20817.871560	 18302.696937	 15753.043080	 14361.913839	 18411.567398	 15944.854279	 
292.500000	 20082.993153	 17111.644773	 13654.372843	 12361.216603	 17137.209347	 14175.848305	 20743.331140	 18318.849329	 15797.635142	 14370.014677	 18412.877038	 15973.545508	 
293.000000	 20032.310970	 17124.362792	 13856.785045	 12373.936526	 17333.342704	 14212.119565	 20679.562109	 18334.672330	 15983.873637	 14380.521286	 18971.577379	 16005.244944	 
293.500000	 20265.906425	 17134.817702	 14645.732446	 12396.454817	 17544.417695	 14249.815761	 21420.719475	 18340.687845	 16433.280386	 14401.389208	 19358.288190	 16042.822956	 
294.000000	 20386.171987	 17142.963912	 15810.712858	 12427.284658	 17584.770273	 14286.873008	 21287.666844	 18346.449677	 17200.615063	 14430.227103	 18840.877384	 16074.221034	 
294.500000	 20095.903572	 17158.118860	 16186.260939	 12457.193828	 17550.284785	 14320.320171	 20719.831123	 18359.698391	 17513.443384	 14454.910353	 18794.626894	 16101.264108	 
295.000000	 19746.216643	 17174.143040	 16299.774770	 12481.051092	 17443.149457	 14347.545785	 20313.882695	 18373.434497	 17587.411514	 14465.748071	 18750.153205	 16124.325308	 
295.500000	 20836.821713	 17194.701323	 16435.519863	 12495.988318	 17268.839025	 14368.974740	 21366.392841	 18391.822547	 17556.638546	 14469.058258	 18553.745229	 16140.990800	 
296.000000	 20745.597770	 17216.592283	 16122.873665	 12508.558977	 17114.949116	 14385.063214	 21252.832587	 18412.134554	 17574.595497	 14472.126565	 18454.182968	 16151.577173	 
296.500000	 20531.290978	 17239.840582	 15556.933598	 12523.112883	 16970.309882	 14396.269840	 21244.580189	 18428.892673	 17355.761317	 14478.671913	 18157.432044	 16159.670875	 
297.000000	 20251.057038	 17262.866178	 14896.832420	 12537.416971	 16842.477019	 14405.207963	 21007.143172	 18442.832098	 17103.771222	 14489.373728	 17688.259133	 16164.101544	 
297.500000	 19801.775728	 17283.175123	 15101.249550	 12553.149241	 16794.989861	 14414.932182	 20861.624587	 18453.295872	 17326.412061	 14507.504246	 17463.975476	 16165.124232	 
298.000000	 19839.085024	 17299.992552	 15626.183133	 12571.224323	 16913.069511	 14426.873577	 21079.852205	 18460.092693	 17806.663310	 14533.443869	 17456.071520	 16165.995787	 
298.500000	 19629.721027	 17312.649380	 15800.731428	 12597.863921	 17048.798198	 14440.509693	 21065.309786	 18463.889246	 18287.755880	 14566.620497	 17587.882835	 16167.021750	 
299.000000	 19288.895034	 17322.055303	 15879.129106	 12630.853739	 17200.741204	 14454.990354	 20936.761558	 18465.855310	 18676.106963	 14604.281279	 17773.518327	 16169.327293	 
299.500000	 19126.386183	 17331.215924	 15641.356389	 12660.909613	 17320.188103	 14470.235362	 20602.674274	 18468.448430	 18279.797543	 14638.107900	 17929.247178	 16173.193732	 
300.000000	 19278.910185	 17343.317278	 15147.800993	 12684.662245	 17419.190675	 14485.435608	 20635.492681	 18474.897706	 17682.119701	 14662.695134	 18116.669368	 16179.697097	 
